SamplingTime, AccelerationX, AccelerationY, AccelerationZ, GyroX, GyroY, GyroZ, MagneticFieldX, MagneticFieldY, MagneticFieldZ
1647834903.523785, 7.562834, -5.161300, -3.039140, 0.144053, 0.098041, 0.039525, , , 
1647834903.543667, 7.289147, -5.192126, -2.816329, 0.132919, 0.080189, -0.075545, , , 
1647834903.563847, 7.330746, -5.196615, -2.670133, 0.065324, 0.065262, -0.132152, , , 
1647834903.583054, 7.600393, -5.370344, -2.609530, 0.061905, 0.125691, -0.120255, , , 
1647834903.603620, 7.652916, -5.189881, -2.920776, 0.138244, 0.131748, -0.120395, , , 
1647834903.623767, 7.615207, -5.040692, -2.936189, 0.186263, 0.102125, -0.152040, , , 
1647834903.643818, 7.713669, -4.984429, -2.704550, 0.184768, 0.078782, -0.174940, , , 
1647834903.663758, 7.958177, -5.070021, -2.488024, 0.142847, 0.043799, -0.171695, , , 
1647834903.683012, 8.017583, -5.119252, -2.436848, 0.108493, 0.049788, -0.144020, , , 
1647834903.703851, 8.057087, -5.142296, -2.589928, 0.110119, 0.030910, -0.126725, , , 
1647834903.723848, 8.177695, -5.162497, -2.465878, 0.106877, 0.015036, -0.101753, , , 
1647834903.743863, 8.150012, -5.005827, -2.464531, 0.099762, 0.035563, -0.086700, , , 
1647834903.763875, 8.147169, -5.114314, -2.530073, 0.110395, 0.015441, -0.094675, , , 
1647834903.783016, 8.264036, -5.287594, -2.297685, 0.086159, -0.005613, -0.057260, , , 
1647834903.803880, 8.245930, -5.157559, -2.352902, 0.052319, 0.025709, -0.031468, , , 
1647834903.823769, 8.092701, -5.165041, -2.538153, 0.067029, 0.013227, -0.036135, , , 
1647834903.843858, 7.971494, -5.161001, -2.518999, 0.093287, 0.046098, -0.054848, , , 
1647834903.863869, 7.986159, -5.130475, -2.517204, 0.116948, 0.107150, -0.054335, , , 
1647834903.883029, 7.790433, -5.090372, -2.608632, 0.143576, 0.162364, -0.072761, , , 
1647834903.903880, 7.526921, -4.907515, -2.708141, 0.193167, 0.181511, -0.153475, , , 
1647834903.923881, 7.661894, -4.950610, -2.720112, 0.259235, 0.215263, -0.236919, , , 
1647834903.943859, 7.811681, -5.030966, -2.730138, 0.310103, 0.176821, -0.267562, , , 
1647834903.963868, 7.846547, -5.038148, -2.560449, 0.317034, 0.084734, -0.301431, , , 
1647834903.983092, 8.087613, -5.077354, -2.255188, 0.273340, 0.066866, -0.334814, , , 
1647834904.003212, 8.507496, -5.158307, -2.192640, 0.254997, 0.083654, -0.329108, , , 
1647834904.023875, 9.003246, -5.245995, -2.160917, 0.257203, 0.077677, -0.264564, , , 
1647834904.043872, 9.438392, -5.042638, -2.197727, 0.273982, 0.001408, -0.214831, , , 
1647834904.063766, 10.358513, -5.368399, -2.087145, 0.288214, -0.125179, -0.074336, , , 
1647834904.083118, 10.600777, -5.597943, -1.618480, 0.278961, -0.199924, 0.230157, , , 
1647834904.103888, 10.074202, -5.539584, -1.247678, 0.196001, -0.162696, 0.444116, , , 
1647834904.123909, 9.860968, -5.202899, -1.026215, 0.082863, -0.023066, 0.567077, , , 
1647834904.143871, 9.257630, -5.494842, -1.124527, -0.012293, -0.055925, 0.575503, , , 
1647834904.163987, 9.357588, -5.799505, -1.150115, -0.141514, -0.051600, 0.585477, , , 
1647834904.183060, 9.577704, -5.895572, -1.372476, -0.292198, -0.162306, 0.697515, , , 
1647834904.203854, 9.589675, -5.864447, -1.454328, -0.387243, -0.180862, 0.775042, , , 
1647834904.223888, 9.725098, -5.876718, -1.613393, -0.372545, -0.032894, 0.826731, , , 
1647834904.243873, 10.248530, -5.964854, -1.781436, -0.298486, 0.186895, 0.929898, , , 
1647834904.263864, 10.883741, -5.881356, -2.021754, -0.288265, 0.176021, 1.092181, , , 
1647834904.283127, 11.095479, -5.825093, -2.157325, -0.329497, -0.091617, 1.300358, , , 
1647834904.303856, 10.658537, -5.987300, -1.898752, -0.336967, -0.189410, 1.454944, , , 
1647834904.323887, 10.742484, -5.924901, -1.709610, -0.307427, -0.110466, 1.582838, , , 
1647834904.343784, 11.208605, -5.863849, -1.591546, -0.310801, 0.097228, 1.765245, , , 
1647834904.363956, 11.864766, -5.713912, -1.939303, -0.274682, 0.271500, 1.985440, , , 
1647834904.383026, 12.710966, -5.664980, -2.250699, -0.263247, 0.267921, 2.307452, , , 
1647834904.403886, 13.182923, -5.393687, -2.426823, -0.315394, 0.067011, 2.920486, , , 
1647834904.423886, 13.069348, -5.000589, -2.459893, -0.348672, 0.020788, 3.345230, , , 
1647834904.443872, 12.813019, -4.919785, -2.383727, -0.405314, 0.003888, 3.820624, , , 
1647834904.463886, 12.155811, -4.471621, -2.318635, -0.503088, 0.013632, 4.238337, , , 
1647834904.482998, 11.019762, -3.708918, -2.425476, -0.602798, 0.172604, 4.672078, , , 
1647834904.503777, 9.506178, -2.920776, -3.015647, -0.603854, 0.346426, 4.943728, , , 
1647834904.523775, 7.230938, -1.775151, -3.436876, -0.533867, 0.625281, 4.877488, , , 
1647834904.543774, 4.797980, -1.373374, -4.036923, -0.400797, 1.015702, 4.669376, , , 
1647834904.562985, 4.001609, -1.446547, -4.361038, -0.299592, 1.462764, 4.677299, , , 
1647834904.583005, 2.978985, -2.543989, -4.960487, -0.200213, 1.735044, 4.760567, , , 
1647834904.603777, 0.861314, -2.077120, -5.712266, -0.130985, 1.818062, 4.602437, , , 
1647834904.623242, -0.943914, -1.974917, -5.778705, -0.041682, 2.243359, 4.371695, , , 
1647834904.643763, -1.265036, -2.522591, -6.249315, 0.033972, 2.425510, 4.346751, , , 
1647834904.663772, -1.758242, -2.494160, -7.290194, 0.002411, 1.973494, 4.312529, , , 
1647834904.683005, -3.069516, -2.167800, -7.630171, 0.041400, 1.735717, 4.288222, , , 
1647834904.703799, -5.353285, -1.976413, -7.290943, 0.169106, 1.885704, 4.070058, , , 
1647834904.722921, -6.507889, -2.347515, -7.558345, 0.293146, 1.873295, 3.956179, , , 
1647834904.743781, -6.680122, -2.247557, -7.579594, 0.342434, 1.650441, 3.932235, , , 
1647834904.763794, -9.349806, -1.400458, -8.152406, 0.479243, 1.376702, 3.546769, , , 
1647834904.783027, -11.071237, -1.491887, -8.138789, 0.729958, 1.423235, 3.097433, , , 
1647834904.803786, -12.142044, -0.781108, -6.575076, 0.870564, 1.768658, 2.472149, , , 
1647834904.823759, -12.822446, -1.674146, -6.629544, 0.837148, 1.664901, 1.904453, , , 
1647834904.843778, -12.387599, -2.387618, -7.056909, 0.719690, 1.160521, 1.498116, , , 
1647834904.863799, -11.900529, -2.634071, -6.740725, 0.638543, 0.827048, 1.173003, , , 
1647834904.883017, -12.002432, -2.875436, -6.198289, 0.523390, 0.680875, 0.856196, , , 
1647834904.903788, -10.749068, -3.868731, -5.747730, 0.300035, 0.476614, 0.898028, , , 
1647834904.923757, -9.288605, -4.543147, -5.767033, 0.128170, 0.077019, 1.090051, , , 
1647834904.943775, -9.747693, -3.982156, -6.265925, 0.105867, -0.443438, 0.925854, , , 
1647834904.963783, -11.031284, -3.734356, -5.451747, 0.138036, -0.401613, 0.565416, , , 
1647834904.983026, -9.843760, -4.354005, -4.614076, 0.151863, -0.259444, 0.475679, , , 
1647834905.003798, -8.577078, -4.492271, -4.281132, 0.142982, -0.172299, 0.452153, , , 
1647834905.023792, -8.386589, -4.040066, -3.898808, 0.017487, -0.208298, 0.290540, , , 
1647834905.043773, -8.534132, -3.503166, -4.112041, -0.052812, -0.351568, -0.086934, , , 
1647834905.063870, -7.935432, -4.458452, -3.604171, 0.036688, -0.040016, -0.349611, , , 
1647834905.082887, -7.166294, -4.982034, -3.563470, 0.124885, 0.298346, -0.230106, , , 
1647834905.103786, -6.847117, -5.309292, -4.188955, 0.081753, 0.199986, -0.128336, , , 
1647834905.123789, -6.881833, -5.400421, -4.222324, -0.048759, -0.054543, -0.120297, , , 
1647834905.143778, -7.139060, -5.462820, -4.270208, -0.099525, -0.158359, -0.129130, , , 
1647834905.163792, -7.445668, -5.545270, -4.338144, -0.030852, -0.090837, -0.214164, , , 
1647834905.183022, -6.991069, -5.681291, -4.096479, 0.035764, 0.114350, -0.213240, , , 
1647834905.203792, -6.642862, -5.679046, -4.263774, 0.027553, 0.134715, -0.156434, , , 
1647834905.223569, -6.571485, -5.570709, -4.262876, -0.062238, 0.010912, -0.087635, , , 
1647834905.243781, -6.855796, -5.500678, -4.261978, -0.131142, -0.028443, -0.097262, , , 
1647834905.263791, -6.820183, -5.622034, -4.340388, -0.113202, 0.027800, -0.119925, , , 
1647834905.283033, -6.659173, -5.732317, -4.410269, -0.067503, 0.084814, -0.111410, , , 
1647834905.303788, -6.451476, -5.803994, -4.494814, -0.042261, 0.064474, -0.053315, , , 
1647834905.323789, -6.543652, -5.706430, -4.461894, -0.053423, -0.006491, -0.007333, , , 
1647834905.343798, -6.775740, -5.621735, -4.431368, -0.075420, -0.014692, -0.006701, , , 
1647834905.363783, -6.819734, -5.590162, -4.488530, -0.079700, 0.001634, -0.006909, , , 
1647834905.382966, -6.713790, -5.573402, -4.756830, -0.057714, -0.011728, 0.023531, , , 
1647834905.403765, -6.866720, -5.472846, -4.765509, -0.017338, -0.031757, 0.049369, , , 
1647834905.423811, -7.115567, -5.382614, -4.675876, 0.016745, -0.026531, 0.038793, , , 
1647834905.443788, -7.272986, -5.391293, -4.515165, 0.029301, 0.000195, -0.007801, , , 
1647834905.463797, -7.182006, -5.375132, -4.458303, 0.010779, 0.020593, -0.027363, , , 
1647834905.483783, -7.161805, -5.281908, -4.544644, -0.006080, -0.015885, -0.067596, , , 
1647834905.503813, -6.973711, -5.394885, -4.484190, 0.012441, 0.033408, -0.068936, , , 
1647834905.523771, -6.824223, -5.405210, -4.603002, 0.034723, -0.000520, -0.053224, , , 
1647834905.543759, -6.893206, -5.413290, -4.457555, 0.023607, -0.061565, -0.032458, , , 
1647834905.563766, -7.017854, -5.436334, -4.266617, -0.007094, -0.054620, -0.038081, , , 
1647834905.583748, -6.982091, -5.493645, -4.339191, -0.013122, 0.000056, -0.049005, , , 
1647834905.603806, -6.845172, -5.503970, -4.472219, 0.000412, -0.013200, -0.059529, , , 
1647834905.623791, -6.765565, -5.537489, -4.469077, 0.005940, -0.040705, -0.050682, , , 
1647834905.643778, -6.712444, -5.616498, -4.452317, 0.037940, -0.013148, -0.010333, , , 
1647834905.663792, -6.790854, -5.646126, -4.290110, 0.094757, 0.122187, 0.028363, , , 
1647834905.683790, -7.015909, -5.543774, -4.412963, 0.101953, 0.218179, -0.016637, , , 
1647834905.703809, -6.868665, -5.565471, -4.599112, 0.071072, 0.084816, -0.065711, , , 
1647834905.723781, -6.916849, -5.554398, -4.338144, 0.009488, -0.024427, -0.081387, , , 
1647834905.743758, -6.742670, -5.660791, -4.198532, -0.077994, 0.088308, -0.039412, , , 
1647834905.763784, -6.867319, -5.482871, -4.474913, -0.061376, 0.131869, -0.039303, , , 
1647834905.783786, -7.357232, -5.301810, -4.746954, -0.022959, 0.092589, -0.193924, , , 