SamplingTime, AccelerationX, AccelerationY, AccelerationZ, GyroX, GyroY, GyroZ, MagneticFieldX, MagneticFieldY, MagneticFieldZ
1647835779.823186, 1.866879, -7.275979, -6.600814, 0.003612, -0.043170, -0.003082, , , 
1647835779.843200, 1.825878, -7.263260, -6.510433, 0.034965, 0.016706, -0.008015, , , 
1647835779.863196, 1.889624, -7.264008, -6.424990, 0.033202, 0.003067, -0.005173, , , 
1647835779.883295, 1.870021, -7.266851, -6.373664, 0.004049, -0.043865, -0.011087, , , 
1647835779.903348, 1.840842, -7.305906, -6.292860, -0.004910, -0.037871, -0.015426, , , 
1647835779.923227, 1.860893, -7.273585, -6.225373, 0.008117, 0.015413, -0.013814, , , 
1647835779.943175, 1.906832, -7.250092, -6.264129, 0.005721, 0.039849, -0.002022, , , 
1647835779.962370, 1.857152, -7.296928, -6.294805, -0.032599, 0.011511, -0.004743, , , 
1647835779.983226, 1.846528, -7.332691, -6.401796, -0.043361, 0.004217, -0.009241, , , 
1647835780.003245, 1.845630, -7.274482, -6.445191, -0.018506, 0.044848, -0.009904, , , 
1647835780.023258, 1.851765, -7.238270, -6.483648, -0.002431, 0.067334, -0.013269, , , 
1647835780.043255, 1.887529, -7.247697, -6.487688, -0.007833, 0.047384, -0.016323, , , 
1647835780.062574, 1.925537, -7.272088, -6.518962, -0.008669, 0.008133, -0.012419, , , 
1647835780.083244, 1.962796, -7.258771, -6.513126, -0.001190, -0.006640, -0.001356, , , 
1647835780.102656, 1.917905, -7.275231, -6.415263, 0.006001, 0.000858, 0.002149, , , 
1647835780.123192, 1.914763, -7.278074, -6.352565, -0.015265, 0.012496, -0.002312, , , 
1647835780.143253, 1.943643, -7.262960, -6.414066, -0.034780, 0.016713, -0.014560, , , 
1647835780.163254, 2.109142, -7.237073, -6.586299, -0.006765, 0.071705, -0.037694, , , 
1647835780.183285, 2.467374, -7.251887, -6.758532, 0.083547, 0.168777, -0.063589, , , 
1647835780.203378, 2.857629, -7.279121, -6.971317, 0.198281, 0.252598, -0.104701, , , 
1647835780.223351, 3.573945, -7.444770, -7.161207, 0.332391, 0.299540, -0.083544, , , 
1647835780.243181, 5.282956, -8.418312, -7.045088, 0.451808, 0.444291, 0.217473, , , 
1647835780.263257, 6.779032, -8.786720, -7.568670, 0.601647, 0.339119, 0.631528, , , 
1647835780.283317, 7.472154, -9.137022, -7.507169, 0.722539, 0.198592, 1.080985, , , 
1647835780.303271, 7.569867, -8.823830, -7.172430, 0.804721, 0.232377, 1.469851, , , 
1647835780.323192, 7.451354, -8.520066, -7.504176, 1.062427, 0.269805, 1.776828, , , 
1647835780.343255, 7.306355, -8.242189, -7.260716, 1.335831, 0.367303, 2.079564, , , 
1647835780.363107, 6.999748, -8.055291, -6.788160, 1.548320, 0.700511, 2.413379, , , 
1647835780.382766, 6.266075, -7.918223, -6.520758, 1.686329, 1.060779, 2.738031, , , 
1647835780.403384, 5.195118, -7.735516, -6.429180, 1.743584, 1.222147, 2.982333, , , 
1647835780.423196, 4.105008, -7.673865, -6.240636, 1.788441, 1.285937, 3.306413, , , 
1647835780.443170, 2.902371, -7.092523, -6.026355, 1.793083, 1.099708, 3.624248, , , 
1647835780.463245, 0.882563, -6.762273, -5.445013, 1.673537, 0.685671, 3.923652, , , 
1647835780.482383, -1.493084, -5.650765, -4.238485, 1.301853, 0.283238, 4.053491, , , 
1647835780.502938, -3.758298, -4.731391, -3.962703, 1.022342, -0.076469, 4.117930, , , 
1647835780.523108, -7.933486, -2.692729, -3.546112, 0.923622, -0.257944, 3.784650, , , 
1647835780.543250, -11.057022, -1.591845, -3.217807, 1.004020, -0.108633, 3.148519, , , 
1647835780.563318, -14.407707, -1.019780, -2.328810, 1.038124, 0.118778, 2.129758, , , 
1647835780.583181, -16.705841, -1.172261, -1.434426, 0.882775, 0.213073, 0.967500, , , 
1647835780.603287, -17.894263, -1.620126, -0.840215, 0.454946, -0.093056, -0.207818, , , 
1647835780.623182, -18.003648, -1.685967, -0.281618, -0.070975, -0.228921, -1.406371, , , 
1647835780.643261, -15.871462, -1.829469, -0.758513, -0.292730, 0.073026, -2.386759, , , 
1647835780.663221, -12.971485, -2.224812, -1.890671, -0.335719, 0.285847, -3.091635, , , 
1647835780.683306, -10.421212, -2.626589, -2.761712, -0.423123, 0.159927, -3.643315, , , 
1647835780.703195, -7.941268, -2.944419, -3.195960, -0.574517, -0.100324, -4.064403, , , 
1647835780.723053, -4.898237, -3.717896, -3.289483, -0.691314, -0.162996, -4.164839, , , 
1647835780.743178, -1.605312, -5.015254, -3.799448, -0.650949, -0.175662, -3.904664, , , 
1647835780.763315, 0.322319, -5.825841, -3.380613, -0.755532, -0.304082, -3.660006, , , 
1647835780.782957, 2.552967, -6.576722, -2.857779, -1.053202, -0.629291, -3.468031, , , 
1647835780.803204, 5.013009, -7.754071, -2.173636, -1.498317, -1.005222, -3.111661, , , 
1647835780.823129, 7.277475, -8.429834, -2.381333, -2.209567, -1.627734, -2.562605, , , 
1647835780.843178, 8.970026, -8.503306, -4.551527, -2.323857, -1.820687, -2.178289, , , 
1647835780.863251, 11.012579, -9.368511, -6.988076, -1.738323, -1.745818, -1.735734, , , 
1647835780.882618, 12.124088, -10.499921, -7.036858, -1.461470, -1.489542, -1.150765, , , 
1647835780.903339, 11.797878, -11.247959, -7.362619, -1.378769, -0.959596, -0.702266, , , 
1647835780.923194, 12.766183, -12.034455, -9.870994, -0.656429, -0.357344, -0.210131, , , 
1647835780.942459, 13.790153, -13.101520, -11.029638, 0.240961, -0.020505, 0.557214, , , 
1647835780.963234, 12.942156, -13.291261, -9.416694, 0.459165, -0.214809, 1.317368, , , 
1647835780.983199, 11.172542, -12.372636, -8.051251, 0.278200, -0.569325, 1.928235, , , 
1647835781.003267, 9.346365, -10.871471, -7.982418, 0.309747, -0.703877, 2.436712, , , 
1647835781.023134, 7.057957, -9.155278, -7.928548, 0.628736, -0.482811, 2.778130, , , 
1647835781.043181, 4.610484, -7.929147, -7.405266, 1.012479, -0.171297, 2.936547, , , 
1647835781.063286, 2.706795, -7.197120, -6.652888, 1.270816, -0.159246, 3.011721, , , 
1647835781.083281, 0.956783, -6.582409, -5.413739, 1.395898, -0.139283, 3.030151, , , 
1647835781.103249, -0.514753, -5.978322, -4.372411, 1.485630, 0.022195, 3.090017, , , 
1647835781.123199, -2.314146, -5.099051, -3.105728, 1.451494, 0.466565, 3.216170, , , 
1647835781.143199, -4.947618, -3.549554, -2.890400, 1.440056, 0.859378, 3.183420, , , 
1647835781.163267, -8.287978, -2.013673, -2.673575, 1.426486, 1.082192, 2.787539, , , 
1647835781.183183, -11.177031, -1.136348, -2.347066, 1.283231, 0.967978, 2.099292, , , 
1647835781.203290, -12.821399, -1.231667, -1.302595, 0.835736, 0.609113, 1.406096, , , 
1647835781.223228, -14.387207, -1.471387, -0.432453, 0.259592, 0.504467, 0.759223, , , 
1647835781.243180, -15.925631, -1.257106, -0.862810, -0.118876, 0.676344, 0.023919, , , 
1647835781.263362, -17.152659, -0.780061, -2.157176, -0.292681, 0.739190, -0.991842, , , 
1647835781.282300, -17.126024, -0.826149, -3.694104, -0.365015, 0.475339, -2.182374, , , 
1647835781.303270, -14.597597, -1.610101, -4.518906, -0.327172, 0.307329, -3.101475, , , 
1647835781.323204, -11.479449, -2.453309, -4.480599, -0.243309, 0.508282, -3.699597, , , 
1647835781.343287, -7.722946, -3.324050, -5.014206, -0.230820, 0.607846, -3.983421, , , 
1647835781.363274, -3.722834, -4.195240, -6.146365, -0.227321, 0.447511, -3.990864, , , 
1647835781.383209, 0.161160, -5.393089, -7.180360, -0.083128, 0.211466, -3.830799, , , 
1647835781.403451, 3.807379, -6.144719, -7.608025, 0.172283, 0.032831, -3.746450, , , 
1647835781.423116, 8.975712, -8.064270, -7.902212, 0.526681, -0.323775, -3.366500, , , 
1647835781.443185, 14.104392, -11.049390, -7.191434, 0.612296, -1.022305, -2.337001, , , 
1647835781.462477, 15.659126, -12.363208, -5.584924, 0.349308, -1.807156, -1.341306, , , 
1647835781.483296, 15.388282, -12.615497, -4.362235, 0.399330, -1.763855, -0.761753, , , 
1647835781.503258, 16.105944, -13.513622, -2.899977, 0.721583, -0.833331, -0.070180, , , 
1647835781.523113, 16.640150, -14.366108, -1.852962, 0.838050, -0.013802, 0.872120, , , 
1647835781.543173, 16.083050, -13.997999, -1.499967, 0.468615, 0.116264, 1.856218, , , 
1647835781.563266, 14.338126, -12.799701, -2.643049, 0.033673, -0.291441, 2.745360, , , 
1647835781.583277, 11.355100, -10.877606, -4.031536, -0.074666, -0.617888, 3.445517, , , 
1647835781.603358, 8.457966, -9.170092, -4.667197, 0.165624, -0.449275, 4.101970, , , 
1647835781.623193, 4.864718, -6.923133, -4.475511, 0.471752, 0.046653, 4.447502, , , 
1647835781.643176, 1.272967, -4.920384, -4.731092, 0.742086, 0.232542, 4.467710, , , 
1647835781.663254, -2.085350, -3.311929, -4.384831, 0.924766, 0.170118, 4.336970, , , 
1647835781.683197, -5.617994, -1.938106, -3.368492, 0.991087, 0.098442, 4.063809, , , 
1647835781.703358, -9.549124, -0.983119, -1.529296, 1.064933, 0.789841, 3.636868, , , 
1647835781.723132, -13.424289, -0.099659, -0.778116, 1.142857, 1.758297, 2.965862, , , 
1647835781.743229, -16.458041, 0.341922, -1.693748, 0.946409, 1.642642, 2.085344, , , 
1647835781.763272, -19.130120, 0.650774, -1.866430, 0.373489, 0.532605, 1.002027, , , 
1647835781.783274, -21.279664, 0.716614, -0.912640, -0.338431, -0.361674, -0.247757, , , 
1647835781.803271, -21.941811, 0.854880, -1.061679, -0.724982, -0.561816, -1.696280, , , 
1647835781.823198, -19.461268, 0.505775, -1.847725, -0.734533, -0.295517, -2.974634, , , 
1647835781.843183, -15.392771, -0.326360, -2.279579, -0.646829, 0.014380, -3.858829, , , 
1647835781.863187, -11.179126, -1.056441, -2.221969, -0.749196, 0.220907, -4.417295, , , 
1647835781.883207, -4.238934, -2.722806, -4.245967, -0.913898, -0.103449, -4.555643, , , 
1647835781.903197, -0.864756, -3.831471, -4.013729, -1.048299, -0.228416, -4.425598, , , 
1647835781.923093, 3.539528, -4.910508, -5.107880, -0.762075, 0.443371, -4.251273, , , 
1647835781.943260, 8.807370, -7.159262, -7.320870, -0.064575, 0.680275, -3.735905, , , 
1647835781.963220, 12.734609, -10.083928, -7.863456, 0.079850, -0.405405, -2.704680, , , 
1647835781.983280, 12.581230, -11.592874, -6.358850, -0.638993, -2.183672, -1.650206, , , 
1647835782.003294, 9.259874, -11.268460, -4.793192, -1.475489, -3.322656, -1.009982, , , 
1647835782.023259, 5.616797, -9.687090, -4.839729, -1.478182, -2.882249, -1.012789, , , 
1647835782.043296, 4.671087, -9.713276, -4.813094, -0.765048, -0.958360, -1.034190, , , 
1647835782.063289, 5.155614, -10.276362, -5.685780, 0.054620, 0.550272, -0.829007, , , 
1647835782.083196, 4.879383, -10.299407, -5.684433, 0.271578, 0.697312, -0.638391, , , 
1647835782.103223, 4.421342, -10.120440, -5.230283, -0.007339, -0.021217, -0.468170, , , 
1647835782.123098, 3.671957, -9.674520, -4.794838, -0.308586, -0.539000, -0.288926, , , 
1647835782.143167, 2.563143, -9.139715, -4.664054, -0.338977, -0.422087, -0.160296, , , 
1647835782.163171, 1.617283, -8.609848, -4.884171, -0.129511, -0.004175, -0.153737, , , 
1647835782.183182, 1.584961, -8.355315, -5.140052, 0.041256, 0.130823, -0.172142, , , 
1647835782.203277, 2.130091, -8.697536, -5.116110, 0.095056, -0.005194, -0.093079, , , 
1647835782.223124, 2.117671, -8.658032, -4.698471, 0.169603, -0.033500, -0.001196, , , 
1647835782.243265, 1.861791, -8.587253, -4.115483, 0.013163, -0.085649, 0.006988, , , 
1647835782.263280, 1.625663, -8.569895, -4.405930, -0.149826, -0.258717, -0.026786, , , 
1647835782.283186, 1.612944, -8.664017, -4.863970, -0.176048, -0.397098, -0.016185, , , 