SamplingTime, AccelerationX, AccelerationY, AccelerationZ, GyroX, GyroY, GyroZ, MagneticFieldX, MagneticFieldY, MagneticFieldZ
1647835810.155146, 2.451662, -6.655282, -6.805518, -0.115546, -0.062357, -0.006800, , , 
1647835810.175123, 2.425626, -6.614730, -6.988076, -0.056300, 0.015822, -0.005596, , , 
1647835810.195162, 2.481740, -6.550087, -7.220613, 0.014518, 0.041041, -0.008190, , , 
1647835810.215129, 2.386869, -6.557269, -7.098658, 0.019765, 0.058223, -0.018810, , , 
1647835810.235143, 2.382680, -6.604555, -6.888268, -0.021153, 0.046366, -0.024646, , , 
1647835810.255135, 2.325219, -6.602460, -6.652289, -0.080156, 0.054347, -0.032763, , , 
1647835810.275123, 2.332252, -6.561609, -6.638822, -0.106608, 0.069269, -0.043784, , , 
1647835810.295209, 2.378190, -6.543652, -6.649895, -0.126784, 0.095062, -0.050103, , , 
1647835810.315116, 2.463185, -6.564153, -6.759131, -0.141961, 0.090957, -0.056017, , , 
1647835810.335171, 2.572270, -6.507440, -6.999748, -0.125999, 0.062915, -0.050113, , , 
1647835810.355204, 2.506729, -6.498312, -7.157616, -0.099852, 0.075325, -0.046566, , , 
1647835810.375083, 2.499098, -6.507590, -7.166743, -0.061983, 0.116131, -0.047727, , , 
1647835810.395137, 2.573617, -6.479458, -7.240964, -0.022670, 0.142916, -0.037940, , , 
1647835810.415114, 2.678962, -6.487089, -7.253533, 0.001724, 0.126328, -0.028199, , , 
1647835810.435141, 2.699612, -6.489783, -7.156867, -0.010609, 0.070690, -0.023253, , , 
1647835810.455131, 2.644096, -6.473472, -7.078308, -0.028786, 0.015817, -0.028905, , , 
1647835810.475123, 2.642301, -6.467786, -7.052121, -0.033688, 0.000979, -0.032164, , , 
1647835810.495130, 2.586037, -6.467786, -6.988824, -0.025267, 0.000423, -0.027909, , , 
1647835810.515224, 2.550573, -6.456264, -6.891111, -0.027634, 0.013816, -0.034878, , , 
1647835810.535173, 2.593070, -6.440702, -6.859837, -0.042754, 0.027445, -0.036190, , , 
1647835810.555214, 2.607136, -6.412121, -6.806416, -0.064528, 0.046305, -0.048912, , , 
1647835810.575153, 2.649633, -6.413917, -6.835745, -0.102685, 0.063509, -0.056172, , , 
1647835810.595141, 2.705149, -6.420351, -6.843526, -0.130380, 0.092425, -0.062185, , , 
1647835810.615197, 2.683302, -6.419752, -6.985981, -0.131761, 0.128903, -0.055507, , , 
1647835810.634736, 2.713229, -6.347926, -7.145644, -0.112212, 0.101383, -0.072588, , , 
1647835810.655129, 2.579603, -6.347178, -7.035212, -0.094892, 0.110880, -0.078442, , , 
1647835810.675211, 2.529923, -6.317700, -6.853253, -0.099788, 0.144527, -0.105554, , , 
1647835810.695225, 2.452560, -6.233603, -6.539014, -0.142882, 0.210553, -0.147310, , , 
1647835810.715224, 2.402581, -6.161029, -6.334160, -0.216359, 0.339013, -0.212970, , , 
1647835810.735213, 2.694524, -6.224775, -6.287622, -0.290803, 0.450550, -0.280262, , , 
1647835810.755223, 3.401412, -6.047155, -7.038803, -0.349381, 0.453471, -0.286104, , , 
1647835810.775206, 3.812317, -6.187066, -8.008605, -0.283111, 0.194342, -0.206065, , , 
1647835810.795169, 3.517382, -6.258742, -7.984064, -0.221061, 0.034911, -0.173684, , , 
1647835810.814796, 3.430143, -6.266524, -7.890840, -0.188033, 0.050396, -0.216390, , , 
1647835810.835221, 3.938911, -6.367080, -8.304887, -0.107964, 0.141011, -0.252396, , , 
1647835810.855224, 5.699846, -6.953959, -9.059659, 0.008742, 0.285969, -0.117360, , , 
1647835810.875205, 7.011420, -7.306056, -10.369587, 0.279670, 0.196557, 0.251932, , , 
1647835810.895216, 7.952042, -7.438934, -12.079346, 0.691532, -0.077815, 0.600660, , , 
1647835810.915209, 8.891766, -7.994389, -12.772318, 1.171908, -0.284316, 1.140628, , , 
1647835810.935227, 8.925733, -7.603386, -12.817508, 1.628309, -0.248069, 1.521068, , , 
1647835810.955227, 9.986215, -8.105420, -12.856414, 2.116369, -0.316679, 2.157909, , , 
1647835810.975207, 9.439140, -7.402572, -12.379220, 2.542909, -0.562934, 2.807752, , , 
1647835810.995220, 7.674763, -6.636428, -10.609007, 2.951544, -0.567021, 3.222318, , , 
1647835811.015230, 6.000318, -5.787983, -9.204658, 3.252395, -0.159446, 3.463492, , , 
1647835811.035222, 3.997419, -5.010615, -8.380155, 3.665251, 0.184147, 3.626716, , , 
1647835811.055168, 1.908328, -4.151246, -6.574029, 4.006401, 0.325004, 3.542941, , , 
1647835811.075133, 0.159963, -4.422090, -3.530400, 3.999660, 0.410941, 3.514502, , , 
1647835811.094746, -2.317886, -4.253748, -0.342072, 3.462732, 0.370453, 3.308715, , , 
1647835811.115128, -4.077924, -4.342932, 1.434426, 2.170252, -0.231342, 2.888428, , , 
1647835811.135148, -5.675605, -3.974674, 2.389413, 1.197609, -1.151995, 2.660973, , , 
1647835811.155205, -7.607875, -3.356970, 3.655347, 0.159033, -2.123296, 2.394107, , , 
1647835811.175118, -9.929353, -1.706168, 4.964228, -0.526157, -2.326322, 1.854473, , , 
1647835811.195139, -14.434193, -0.100556, 5.898714, -0.770065, -1.501190, 0.607296, , , 
1647835811.215147, -17.231818, 0.003442, 6.555923, -0.836254, -0.106254, -0.947471, , , 
1647835811.235144, -17.272070, 0.337882, 6.723218, -0.991212, 1.195991, -2.504133, , , 
1647835811.255122, -14.347253, 0.237625, 4.725406, -1.184375, 1.609616, -3.717975, , , 
1647835811.275131, -10.755652, -0.174178, 3.279607, -1.680490, 1.392528, -4.669833, , , 
1647835811.295182, -7.610419, -0.530016, 1.617882, -2.115867, 1.111216, -5.421372, , , 
1647835811.315134, -4.551826, -0.354940, -0.213234, -2.416444, 1.113554, -6.207971, , , 
1647835811.335125, -0.056713, -0.376937, -1.680430, -2.423126, 1.965015, -6.591900, , , 
1647835811.355149, 9.047538, -2.677017, -5.486762, -1.605623, 3.098574, -5.666092, , , 
1647835811.375124, 19.058593, -8.932018, -13.648147, -0.084726, 1.918680, -3.519293, , , 
1647835811.395132, 25.250747, -11.001357, -16.661399, 0.915717, -0.098095, -1.539426, , , 
1647835811.415216, 22.410625, -14.042142, -13.368474, 1.114908, -1.016851, -0.431386, , , 
1647835811.435131, 21.617696, -16.471210, -10.285939, 1.572974, -0.954876, 0.839041, , , 
1647835811.455130, 21.127333, -16.440534, -8.198495, 2.144810, -0.714817, 2.233263, , , 
1647835811.475136, 19.111116, -14.197466, -5.531653, 2.306921, -0.678055, 3.563162, , , 
1647835811.495141, 15.147665, -11.385626, -3.705476, 2.101114, -1.183180, 4.338346, , , 
1647835811.515218, 10.358513, -8.551490, -2.210447, 1.883367, -1.392513, 4.651649, , , 
1647835811.535233, 7.476344, -7.278074, -0.169988, 1.748488, -0.578062, 4.966017, , , 
1647835811.555120, 3.328688, -5.433641, 1.084274, 1.427080, -0.119684, 4.818727, , , 
1647835811.575135, -0.667833, -4.112790, 1.950676, 0.935798, -0.132371, 4.397509, , , 
1647835811.595141, -4.607491, -2.438045, 1.960253, 0.444172, -0.435093, 3.783080, , , 
1647835811.615128, -7.562834, -1.792958, 2.475904, 0.200717, -0.132426, 3.214435, , , 
1647835811.635127, -10.344747, -1.288529, 2.853739, 0.077636, 0.493571, 2.455127, , , 
1647835811.655140, -13.032089, -0.466570, 2.472013, 0.001780, 0.904636, 1.479187, , , 
1647835811.674785, -15.423896, 0.211588, 2.012177, -0.402844, 0.784703, 0.168026, , , 
1647835811.695239, -17.972973, 0.920870, 2.248155, -1.028055, 0.505489, -1.577580, , , 
1647835811.714986, -18.221072, 1.080982, 1.380108, -1.612982, -0.104213, -3.373541, , , 
1647835811.735178, -14.964808, 0.807744, 0.686238, -2.148332, -0.466053, -4.747456, , , 
1647835811.755162, -11.839477, 1.108216, 0.796371, -2.683724, -0.331499, -5.931447, , , 
1647835811.775145, -7.300968, 1.319804, -1.372177, -2.912701, -0.396133, -6.735891, , , 
1647835811.795246, 0.137218, -0.155025, -3.731363, -3.125084, -0.400666, -7.313841, , , 
1647835811.815151, 9.732430, -1.231817, -7.695114, -3.249596, -1.083849, -6.780734, , , 
1647835811.835140, 16.982970, -4.826561, -10.873865, -3.041561, -1.966053, -4.702160, , , 
1647835811.855127, 16.533908, -8.336461, -12.895320, -2.520098, -2.051808, -3.208520, , , 
1647835811.875275, 17.015292, -9.130438, -15.432276, -1.402598, -1.727969, -2.291243, , , 
1647835811.895157, 18.850747, -11.173739, -16.232987, -0.139017, -1.428344, -1.309291, , , 
1647835811.915129, 19.888184, -12.835016, -14.468011, 0.701449, -1.010583, 0.032890, , , 
1647835811.935141, 19.535040, -13.048249, -13.583653, 1.279011, -0.650306, 1.436308, , , 
1647835811.955135, 17.341951, -11.744008, -12.913426, 2.011261, -0.383246, 2.691759, , , 
1647835811.975146, 14.013113, -9.643246, -10.890026, 2.614535, -0.291235, 3.571858, , , 
1647835811.995250, 12.087277, -8.052149, -8.674642, 2.831983, -0.456037, 4.272503, , , 
1647835812.014345, 9.766098, -6.250812, -7.351247, 3.104206, -0.516819, 5.083574, , , 
1647835812.035172, 4.496011, -3.965546, -4.109797, 3.415392, -0.141702, 5.268201, , , 
1647835812.055163, 0.626982, -3.286790, -0.708384, 3.333746, 0.601533, 5.046111, , , 
1647835812.075193, -2.316240, -2.627936, 0.861164, 3.046829, 1.128418, 4.816582, , , 
1647835812.095146, -5.843049, -1.751957, 1.795951, 2.625422, 1.092530, 4.304178, , , 
1647835812.115215, -8.447492, -1.549797, 3.559729, 2.017583, 0.921705, 3.760419, , , 
1647835812.135154, -11.549030, -1.384597, 5.251532, 1.197217, 1.047860, 3.172774, , , 
1647835812.155171, -15.007903, -0.834080, 5.035455, 0.283138, 1.254618, 2.121530, , , 
1647835812.175182, -17.135750, -0.664241, 3.296067, -0.374460, 1.052302, 0.643389, , , 
1647835812.195171, -16.656162, -0.944363, 1.984644, -0.755296, 0.730533, -0.863784, , , 
1647835812.215174, -14.562133, -1.379060, 1.065719, -0.987487, 0.507303, -2.047129, , , 
1647835812.235155, -12.569708, -1.974468, 0.917428, -1.225012, 0.375640, -2.993371, , , 
1647835812.255132, -11.181520, -2.507028, 0.995689, -1.363687, 0.708357, -3.897867, , , 
1647835812.275168, -9.267206, -2.577807, 1.141735, -1.434272, 1.333601, -4.939178, , , 
1647835812.295167, -5.216965, -2.211045, 0.763451, -1.640046, 1.835693, -5.852493, , , 
1647835812.314331, 1.099387, -2.569278, -2.075623, -1.952062, 1.328182, -6.227409, , , 
1647835812.335170, 7.582137, -4.652233, -3.916764, -2.146306, 0.324518, -5.851619, , , 
1647835812.354195, 14.007576, -8.575881, -5.559935, -2.131379, -0.356536, -4.194047, , , 
1647835812.375135, 14.990546, -10.439168, -6.858490, -1.677206, -0.554134, -2.165819, , , 
1647835812.395165, 11.336246, -9.866206, -6.178986, -1.127826, -0.178297, -1.018867, , , 
1647835812.415183, 8.873959, -9.016115, -5.594052, -1.185346, -0.118541, -0.643501, , , 
1647835812.435217, 7.341969, -8.298752, -5.607968, -1.608822, -0.247721, -0.569384, , , 
1647835812.454249, 7.178565, -7.810035, -7.180211, -1.709795, 0.183743, -0.423458, , , 
1647835812.475180, 7.178265, -7.100604, -9.443180, -1.254236, 0.703811, -0.225877, , , 
1647835812.495254, 6.804171, -6.562357, -10.472986, -0.728273, 0.356876, -0.108598, , , 
1647835812.514493, 6.016030, -6.745663, -9.949255, -0.617990, 0.267154, -0.077997, , , 
1647835812.535166, 5.080945, -6.876746, -9.133730, -0.322481, 0.283601, -0.044849, , , 
1647835812.554297, 5.590760, -6.535273, -10.774506, 0.186193, 0.022261, 0.042068, , , 
1647835812.575169, 4.710143, -6.678626, -8.341399, 0.339362, -0.316730, 0.158102, , , 
1647835812.595163, 3.125630, -7.066337, -5.479280, -0.023559, -0.369995, 0.106826, , , 
1647835812.615227, 2.668038, -6.890363, -4.676175, -0.272735, -0.348604, 0.065667, , , 
1647835812.635169, 2.563741, -6.746112, -5.642086, -0.272498, -0.429275, -0.005544, , , 
1647835812.654349, 2.469619, -6.759729, -6.325481, -0.170350, -0.484031, -0.084827, , , 
1647835812.675164, 3.030161, -7.243059, -6.273407, -0.117130, -0.315171, -0.053941, , , 
1647835812.695167, 3.338265, -7.294235, -6.270564, -0.081627, -0.108383, -0.018834, , , 
1647835812.715151, 3.181295, -7.248146, -6.520608, -0.030640, 0.049115, -0.011662, , , 
1647835812.735171, 3.192369, -7.104345, -6.849212, 0.008044, -0.025326, -0.014780, , , 
1647835812.754405, 3.496133, -7.148039, -6.582708, -0.067431, -0.164437, 0.008600, , , 
1647835812.775170, 3.419219, -7.105841, -6.358102, -0.072492, -0.215472, 0.011976, , , 
1647835812.795250, 3.280356, -7.021894, -6.342091, -0.033681, -0.176013, 0.009471, , , 
1647835812.815244, 3.212270, -7.066636, -6.205172, -0.015629, -0.108697, 0.002740, , , 
1647835812.835232, 3.253122, -7.088483, -6.349124, -0.013182, -0.088315, 0.013267, , , 
1647835812.854461, 3.113360, -7.120206, -6.256498, -0.015486, -0.005504, 0.012036, , , 
1647835812.875238, 2.997540, -7.131429, -6.310667, -0.010606, 0.025703, 0.014821, , , 
1647835812.895156, 3.023278, -7.111527, -6.390573, -0.002175, 0.023072, 0.031038, , , 
1647835812.915240, 2.950255, -7.058555, -6.242582, 0.008497, 0.045155, 0.032112, , , 
1647835812.935252, 3.036596, -7.067085, -6.158635, 0.015219, 0.047970, 0.043731, , , 
1647835812.954505, 2.992902, -7.045537, -5.951985, 0.015828, 0.099858, 0.026201, , , 
1647835812.975188, 3.113510, -6.856096, -6.276699, 0.141478, 0.140537, 0.028536, , , 
1647835812.994365, 3.223942, -7.041497, -6.027702, 0.068485, 0.043082, 0.013945, , , 
1647835813.015151, 3.310133, -7.173178, -6.123620, -0.078774, -0.167572, 0.011932, , , 
1647835813.035172, 3.296217, -7.191583, -6.228366, -0.076124, -0.155632, 0.018568, , , 