SamplingTime, AccelerationX, AccelerationY, AccelerationZ, GyroX, GyroY, GyroZ, MagneticFieldX, MagneticFieldY, MagneticFieldZ
1647835629.274617, 2.261922, -8.051700, -5.670816, -0.083503, -0.040263, -0.046463, , , 
1647835629.294605, 2.348712, -7.860014, -5.843199, -0.002267, 0.047458, -0.174442, , , 
1647835629.314569, 3.277363, -7.971345, -6.385635, 0.160875, 0.139103, -0.278503, , , 
1647835629.334590, 4.656872, -8.811410, -7.203854, 0.413690, 0.096987, -0.057915, , , 
1647835629.354644, 7.088333, -10.052654, -7.611017, 0.690143, -0.053318, 0.564517, , , 
1647835629.374680, 8.368034, -11.080814, -7.291392, 0.905677, -0.220545, 1.421803, , , 
1647835629.394566, 8.171261, -10.614543, -7.587375, 1.087467, -0.666831, 1.961160, , , 
1647835629.414364, 7.519290, -10.254964, -6.591387, 1.130970, -0.909821, 2.317939, , , 
1647835629.434574, 7.288997, -10.139145, -6.742670, 1.232162, -1.091032, 2.788816, , , 
1647835629.454644, 6.731298, -9.886856, -6.611887, 1.488533, -1.051391, 3.300006, , , 
1647835629.474673, 5.312733, -9.258378, -5.667824, 1.641157, -0.872060, 3.811907, , , 
1647835629.494567, 3.552846, -8.103176, -5.181950, 1.750385, -0.803378, 4.142683, , , 
1647835629.514668, 2.036269, -7.163152, -4.578162, 1.865299, -0.861802, 4.445003, , , 
1647835629.534587, -0.732326, -5.623830, -2.943970, 1.732294, -0.876124, 4.417999, , , 
1647835629.554628, -2.228852, -4.838831, -2.259677, 1.701877, -0.768291, 4.393310, , , 
1647835629.574583, -4.864718, -3.735553, -0.981922, 1.637917, -0.531000, 4.161919, , , 
1647835629.594570, -8.206276, -2.379238, 0.502483, 1.358025, -0.176708, 3.555092, , , 
1647835629.614634, -10.849026, -1.791162, 0.967108, 1.029286, -0.021780, 2.727229, , , 
1647835629.634605, -12.484265, -0.884807, 1.562366, 0.650015, 0.122834, 1.818612, , , 
1647835629.654666, -13.142521, -0.748038, 1.534833, 0.398006, 0.309522, 1.057976, , , 
1647835629.674579, -14.534300, -0.260220, 1.527950, 0.066326, 0.230997, 0.204088, , , 
1647835629.694565, -15.522358, -0.076166, 2.129942, -0.377955, 0.218894, -0.729896, , , 
1647835629.714660, -16.367511, 0.292242, 2.623746, -0.886625, 0.471435, -1.879855, , , 
1647835629.734607, -16.286856, -0.022446, 2.362179, -1.122621, 1.184400, -3.172710, , , 
1647835629.754644, -15.288025, 0.338181, 1.732355, -1.266178, 1.942647, -4.660511, , , 
1647835629.774585, -11.930307, 0.536301, 1.095497, -1.485030, 2.532842, -6.024207, , , 
1647835629.794572, -7.709778, 0.494253, 0.323516, -1.797342, 2.916694, -7.132301, , , 
1647835629.814648, -2.775927, 2.427272, -0.972644, -2.018913, 3.334885, -8.164932, , , 
1647835629.834588, 4.892252, 3.553893, -5.001338, -1.073738, 3.569076, -8.666856, , , 
1647835629.854681, 19.656246, -9.280674, -7.783250, -0.378716, 2.092719, -5.182475, , , 
1647835629.874449, 21.819108, -11.435306, -9.406070, -0.214580, -0.596394, -2.376065, , , 
1647835629.894575, 19.346945, -12.934375, -11.253945, 0.183283, -2.570489, -0.619670, , , 
1647835629.914589, 14.496143, -11.035025, -8.756643, 0.427476, -3.361219, 0.048388, , , 
1647835629.934585, 14.564228, -12.368895, -6.570587, 0.960680, -2.354182, 1.007404, , , 
1647835629.954584, 15.353866, -13.392266, -6.118382, 1.812276, -0.591458, 2.323437, , , 
1647835629.974584, 14.956877, -13.080272, -6.863578, 2.325201, 0.188077, 3.632953, , , 
1647835629.994571, 12.598139, -10.892869, -6.851756, 2.202668, -0.648508, 4.424386, , , 
1647835630.014703, 9.993248, -9.076119, -5.982960, 1.763465, -2.135516, 4.918813, , , 
1647835630.034593, 7.774122, -7.758410, -4.585944, 1.708195, -2.996492, 5.210879, , , 
1647835630.054588, 4.513369, -6.823774, -0.465672, 1.718318, -2.369361, 5.413597, , , 
1647835630.074585, -0.273089, -4.481946, 0.951546, 1.579710, -1.785946, 4.956072, , , 
1647835630.094580, -2.148048, -3.684527, 1.484106, 1.403603, -1.192941, 4.557549, , , 
1647835630.114592, -3.624073, -3.281403, 0.994492, 1.524158, -0.726922, 4.269660, , , 
1647835630.134174, -5.808782, -2.520945, 1.912518, 1.504195, -0.291108, 3.868676, , , 
1647835630.153719, -8.135647, -1.903091, 3.446453, 1.155542, 0.268969, 3.426399, , , 
1647835630.174594, -10.717195, -0.938377, 4.050091, 0.675224, 0.756393, 2.800353, , , 
1647835630.194575, -13.160927, 0.131232, 3.554342, 0.205221, 0.897969, 1.931084, , , 
1647835630.214126, -14.800356, 0.527173, 2.881272, -0.158129, 0.845176, 1.018015, , , 
1647835630.234615, -15.908123, 0.496647, 3.038392, -0.544659, 0.848011, 0.094670, , , 
1647835630.254585, -16.399533, 0.751929, 2.603245, -1.060236, 0.781916, -0.848504, , , 
1647835630.274593, -16.549919, 0.189890, 2.046145, -1.439272, 1.104370, -1.771090, , , 
1647835630.294577, -16.045042, 0.122404, 0.779462, -1.751618, 1.434378, -2.870252, , , 
1647835630.314634, -14.187291, -0.395043, -0.907103, -1.860938, 1.773075, -3.974499, , , 
1647835630.334573, -11.325472, -0.888398, -2.223166, -1.726543, 2.250215, -5.033096, , , 
1647835630.354646, -8.463353, -0.654365, -3.184587, -1.539846, 2.699540, -6.163574, , , 
1647835630.374591, -2.162862, -0.588525, -4.497508, -1.127065, 3.327032, -6.736517, , , 
1647835630.394588, 3.535039, -2.299780, -8.107216, -0.005513, 3.095762, -6.752687, , , 
1647835630.414623, 9.520393, -5.036353, -6.009147, 0.109713, 2.411099, -5.982574, , , 
1647835630.434587, 15.117887, -10.996269, -6.321441, -0.625756, 0.701347, -3.965257, , , 
1647835630.454608, 17.054198, -13.139079, -9.908254, -0.494552, -1.230213, -1.890519, , , 
1647835630.474567, 14.867244, -12.719047, -9.119364, 0.233884, -1.937344, -0.659715, , , 
1647835630.494600, 13.878289, -13.020118, -5.906495, 0.729886, -1.505555, 0.274927, , , 
1647835630.514602, 14.362068, -14.090775, -5.039196, 1.200574, -0.680925, 1.428046, , , 
1647835630.534588, 14.467562, -14.090924, -4.958541, 1.494988, -0.133093, 2.656116, , , 
1647835630.554615, 13.922133, -13.505243, -6.365883, 1.687639, -0.286425, 3.985492, , , 
1647835630.574562, 11.211149, -11.015273, -6.467038, 1.609094, -1.476303, 4.858240, , , 
1647835630.594669, 6.745813, -8.113949, -4.271555, 1.186816, -2.701842, 5.005247, , , 
1647835630.614666, 4.901380, -7.533505, -2.608183, 1.280500, -2.440550, 5.263633, , , 
1647835630.634589, 1.666514, -6.169259, -0.717063, 1.458814, -1.427532, 5.410139, , , 
1647835630.654669, -2.309806, -3.584419, 0.108936, 1.300828, -0.851754, 4.976392, , , 
1647835630.674568, -4.817882, -2.474856, -0.537947, 1.187739, -0.792264, 4.464666, , , 
1647835630.694591, -6.760926, -1.602619, -0.167444, 1.213551, -0.554189, 4.027534, , , 
1647835630.713977, -9.041403, -0.708983, 0.752677, 1.215688, -0.194340, 3.491860, , , 
1647835630.734590, -11.871499, 0.052224, 2.122460, 0.977704, 0.374239, 2.746665, , , 
1647835630.754670, -14.227244, 0.654066, 2.635866, 0.515206, 0.638914, 1.795395, , , 
1647835630.774603, -14.573655, 0.423474, 1.839196, 0.148396, 0.578313, 1.037027, , , 
1647835630.794596, -14.737957, 0.171934, 1.185130, -0.081086, 0.329335, 0.390102, , , 
1647835630.814668, -15.048904, -0.149937, 1.847426, -0.417009, 0.299230, -0.155578, , , 
1647835630.834266, -15.327230, -0.442329, 1.999757, -0.789755, 0.474658, -0.708197, , , 
1647835630.854648, -15.659276, -0.299724, 1.168670, -1.175273, 0.492985, -1.476895, , , 
1647835630.874597, -14.939369, -0.515053, 0.180463, -1.436938, 0.573093, -2.302723, , , 
1647835630.894588, -13.759627, -0.783353, -0.676362, -1.479453, 0.906083, -3.180503, , , 
1647835630.914609, -11.960534, -1.052252, -1.373224, -1.445902, 1.268312, -4.041544, , , 
1647835630.934603, -9.593117, -1.275212, -1.949479, -1.485050, 1.440323, -4.825759, , , 
1647835630.954648, -6.592434, -1.606060, -2.704400, -1.482249, 1.701302, -5.474850, , , 
1647835630.974601, -3.787328, -1.950676, -4.077325, -1.203505, 1.815461, -6.029095, , , 
1647835630.994570, -1.509245, -1.517774, -3.618237, -0.879368, 2.271721, -6.625438, , , 
1647835631.014584, 1.414225, -0.386514, -2.675820, -0.557240, 3.010547, -7.201406, , , 
1647835631.034595, 9.943419, -4.262726, -3.955371, -0.419169, 2.776744, -6.300740, , , 
1647835631.054668, 16.339229, -10.594492, -7.584681, -0.451110, 0.821022, -4.036348, , , 
1647835631.074614, 16.469115, -13.990817, -8.853309, -0.660890, -1.554093, -1.644333, , , 
1647835631.093706, 10.915016, -11.822568, -7.191583, -1.042577, -3.308954, -0.521378, , , 
1647835631.113842, 5.773318, -8.907478, -4.899734, -1.240948, -3.330057, -0.578385, , , 
1647835631.134705, 3.738396, -7.962067, -4.751293, -0.800813, -1.827126, -0.945547, , , 
1647835631.154636, 4.828506, -9.158270, -5.871480, -0.006865, -0.096676, -0.725103, , , 
1647835631.174090, 5.424363, -9.676016, -6.722918, 0.421753, 0.467197, -0.287934, , , 
1647835631.193615, 4.555567, -9.000253, -6.617274, 0.312758, 0.025393, -0.100018, , , 
1647835631.214568, 3.288735, -8.189516, -6.034885, 0.029085, -0.560146, -0.224053, , , 
1647835631.234626, 3.234866, -8.450335, -5.909339, 0.111640, -0.443026, -0.188277, , , 
1647835631.254618, 2.989310, -8.425794, -5.534347, 0.210061, -0.214052, -0.140096, , , 
1647835631.274604, 2.814534, -8.442254, -5.129427, 0.259793, 0.025487, -0.061300, , , 
1647835631.293729, 2.670882, -8.394670, -5.021988, 0.243029, 0.061736, -0.035758, , , 
1647835631.313867, 2.491466, -8.166472, -4.969166, 0.165322, 0.008706, -0.003577, , , 
1647835631.334626, 2.021903, -7.956381, -4.774487, 0.138102, -0.014354, -0.059837, , , 
1647835631.354588, 1.882591, -8.002170, -4.573524, 0.104465, 0.064664, -0.107210, , , 
1647835631.374587, 1.985691, -8.145972, -4.536264, 0.092497, 0.187238, -0.116131, , , 
1647835631.393750, 2.033126, -8.165425, -4.630685, 0.116954, 0.339283, -0.095332, , , 
1647835631.414620, 1.970428, -8.155998, -4.812046, 0.107622, 0.362202, -0.094238, , , 
1647835631.434555, 2.291850, -8.249521, -5.220407, 0.088029, 0.160716, -0.076885, , , 
1647835631.454587, 2.687491, -8.526500, -5.323956, 0.080631, -0.034408, -0.006533, , , 
1647835631.474583, 2.656816, -8.543409, -4.955399, 0.049195, -0.085842, 0.029919, , , 
1647835631.493888, 2.508525, -8.514829, -4.771195, 0.012674, -0.076276, 0.020134, , , 
1647835631.514595, 2.603844, -8.597129, -4.803367, 0.001114, -0.062428, 0.044949, , , 
1647835631.534569, 2.662801, -8.564658, -4.816236, 0.005860, -0.034267, 0.086861, , , 
1647835631.554589, 2.673425, -8.476072, -4.824616, -0.014216, -0.011408, 0.128445, , , 
1647835631.574581, 2.497302, -8.375217, -4.869507, -0.058345, -0.089149, 0.138692, , , 
1647835631.593942, 2.326117, -8.381501, -4.871153, -0.103600, -0.153820, 0.148354, , , 
1647835631.614663, 2.118719, -8.230816, -4.996400, -0.095124, -0.170390, 0.152627, , , 
1647835631.634579, 2.003797, -8.251616, -5.050419, -0.041675, -0.103766, 0.163728, , , 
1647835631.654649, 1.835305, -8.244284, -4.954950, -0.001364, -0.018589, 0.171212, , , 
1647835631.673782, 1.586458, -8.094197, -4.902577, 0.007081, 0.042690, 0.121035, , , 