SamplingTime, AccelerationX, AccelerationY, AccelerationZ, GyroX, GyroY, GyroZ, MagneticFieldX, MagneticFieldY, MagneticFieldZ
1647835702.722652, -0.104746, -8.470087, -5.798158, 0.087599, -0.090875, 0.033847, , , 
1647835702.742656, -0.114922, -8.543110, -5.469105, 0.125066, -0.177402, 0.043292, , , 
1647835702.762753, -0.304064, -8.614338, -4.913051, 0.071771, -0.082682, 0.056856, , , 
1647835702.782650, -0.302717, -8.586206, -4.721515, 0.002534, 0.005519, 0.059210, , , 
1647835702.802677, -0.183156, -8.604611, -4.907964, -0.003341, 0.018938, 0.077836, , , 
1647835702.822696, 0.107141, -8.675539, -5.072864, 0.007960, -0.008971, 0.119807, , , 
1647835702.842655, 0.403124, -8.539519, -5.054459, -0.030532, -0.114012, 0.200537, , , 
1647835702.861962, 0.508768, -8.753949, -4.806809, -0.071151, -0.179427, 0.296509, , , 
1647835702.882664, 0.678457, -8.894160, -4.820426, -0.078111, -0.060556, 0.415103, , , 
1647835702.902737, 0.898125, -9.003695, -4.939687, -0.032392, 0.030019, 0.561826, , , 
1647835702.922722, 0.724396, -8.713996, -4.830900, -0.028550, 0.019426, 0.769411, , , 
1647835702.942723, 0.176722, -8.653243, -5.023484, 0.006932, -0.091339, 0.902011, , , 
1647835702.962745, -0.296282, -8.499416, -5.090222, 0.049811, -0.274564, 1.001016, , , 
1647835702.982735, -1.015291, -8.502858, -5.180304, 0.037872, -0.464521, 1.097394, , , 
1647835703.002731, -1.987187, -8.362198, -5.470900, 0.033951, -0.601864, 1.176691, , , 
1647835703.022735, -3.340360, -8.379407, -5.716755, 0.038036, -0.595897, 1.242804, , , 
1647835703.042730, -5.496339, -8.511237, -6.183175, 0.075476, -0.457928, 1.247499, , , 
1647835703.062731, -8.279449, -8.817695, -6.575824, 0.177258, -0.181610, 0.907420, , , 
1647835703.082744, -10.865336, -8.332720, -7.186645, 0.330795, 0.022418, 0.080173, , , 
1647835703.102724, -10.879103, -8.700379, -7.319823, 0.627362, 0.223099, -0.808696, , , 
1647835703.122727, -9.557952, -8.686463, -6.547393, 0.807220, 0.272993, -1.382960, , , 
1647835703.142714, -9.025841, -8.478018, -6.194099, 0.900707, 0.202850, -1.831838, , , 
1647835703.162727, -8.781932, -7.913136, -6.160730, 1.010389, 0.017410, -2.333931, , , 
1647835703.182733, -7.788637, -7.597700, -6.130054, 1.216630, -0.205436, -2.863809, , , 
1647835703.202323, -6.145018, -7.343016, -5.670517, 1.380930, -0.439228, -3.267516, , , 
1647835703.222758, -4.481946, -7.069479, -4.994005, 1.500128, -0.578210, -3.504779, , , 
1647835703.242740, -3.495534, -6.457611, -4.545541, 1.572488, -0.686490, -3.832391, , , 
1647835703.262753, -1.974468, -5.589114, -3.940557, 1.600632, -0.727998, -4.233025, , , 
1647835703.282753, 0.115969, -4.582801, -3.015647, 1.468061, -0.561093, -4.602019, , , 
1647835703.302871, 2.628983, -3.451990, -1.939004, 1.194881, -0.081618, -4.861068, , , 
1647835703.322758, 5.342212, -2.528726, -1.114651, 0.839768, 0.541828, -4.928466, , , 
1647835703.342742, 8.310573, -1.791761, -0.527323, 0.513320, 1.045834, -4.830707, , , 
1647835703.362759, 11.682357, -1.303493, -0.069881, 0.202051, 1.095775, -4.461700, , , 
1647835703.382655, 15.360599, -1.048211, 0.242413, -0.063804, 0.754708, -3.588593, , , 
1647835703.402758, 17.382802, -0.902165, 0.135871, -0.227070, 0.231966, -2.358194, , , 
1647835703.422769, 17.747618, -1.018733, -0.139013, -0.221198, -0.356766, -1.152356, , , 
1647835703.442754, 18.249653, -1.566257, -0.131382, -0.160155, -0.600986, -0.024726, , , 
1647835703.462778, 16.769886, -1.593341, 0.313341, -0.262285, -0.444969, 1.069538, , , 
1647835703.482764, 14.896423, -1.946336, 0.046687, -0.404949, -0.368313, 1.821788, , , 
1647835703.502852, 13.184719, -2.278831, 0.032322, -0.719555, -0.301969, 2.345832, , , 
1647835703.522504, 11.841572, -2.611326, -0.478840, -1.152254, -0.243906, 2.777603, , , 
1647835703.542643, 10.646566, -2.749591, -1.688511, -1.516923, -0.146744, 3.198436, , , 
1647835703.562651, 9.328707, -2.809147, -2.918831, -1.662500, 0.181431, 3.833854, , , 
1647835703.582656, 8.477569, -2.542941, -3.818303, -1.560528, 0.359748, 4.454311, , , 
1647835703.602658, 7.483975, -2.694824, -4.329166, -1.390786, 0.312436, 5.245893, , , 
1647835703.622146, 5.829582, -2.507028, -4.640412, -1.325419, 0.123572, 6.063450, , , 
1647835703.642646, 2.542193, -2.541595, -4.696526, -1.402358, -0.198963, 6.698191, , , 
1647835703.661899, -1.959654, -2.666093, -5.801899, -1.269447, -0.605046, 6.735665, , , 
1647835703.682662, -7.033416, -3.500921, -7.457340, -0.849835, -0.319891, 6.342537, , , 
1647835703.702660, -11.378443, -4.743512, -7.544129, -0.675471, 0.790876, 5.381398, , , 
1647835703.722656, -17.066917, -4.066402, -8.892963, -0.265509, 1.598992, 3.809407, , , 
1647835703.742642, -19.271378, -6.696732, -10.995670, 0.452954, 1.263160, 2.353386, , , 
1647835703.762661, -20.081217, -9.012374, -11.040861, 0.972946, 0.483419, 1.053344, , , 
1647835703.782652, -20.513370, -9.400085, -9.620202, 1.191593, 0.042913, -0.441487, , , 
1647835703.802740, -19.320160, -9.367763, -8.531588, 1.352219, -0.125846, -1.690347, , , 
1647835703.822641, -15.801881, -9.387665, -7.195923, 1.283620, -0.312414, -2.426530, , , 
1647835703.842646, -13.079374, -8.954165, -6.086809, 1.081989, -0.390866, -2.917912, , , 
1647835703.862650, -11.234791, -8.424597, -5.804892, 0.973445, -0.571100, -3.419563, , , 
1647835703.882645, -9.746645, -7.417835, -6.612186, 1.099882, -0.814491, -3.946182, , , 
1647835703.902674, -7.941417, -6.441749, -7.083695, 1.271245, -1.036648, -4.427114, , , 
1647835703.922638, -5.901557, -5.373636, -6.769456, 1.377444, -0.901698, -4.931428, , , 
1647835703.942646, -3.322104, -4.365827, -5.873575, 1.410596, -0.524424, -5.498591, , , 
1647835703.962658, -0.314688, -2.916587, -4.807707, 1.418773, 0.001696, -5.840436, , , 
1647835703.982650, 4.007894, -1.473033, -3.617040, 1.529811, 0.609740, -5.685442, , , 
1647835704.002653, 8.524106, -0.673369, -2.332102, 1.726634, 0.873381, -5.081832, , , 
1647835704.022659, 13.104962, -0.740407, 0.053570, 1.622462, 0.490320, -4.018514, , , 
1647835704.042648, 16.909349, -0.957381, 1.970727, 1.351771, -0.311161, -2.679764, , , 
1647835704.062656, 18.761263, -1.148918, 2.698116, 1.114587, -0.934421, -1.427283, , , 
1647835704.081974, 19.353230, -1.054496, 3.186982, 0.860757, -1.131758, -0.284191, , , 
1647835704.102741, 19.534740, -1.201889, 3.623624, 0.551147, -1.159597, 0.804540, , , 
1647835704.122640, 18.614170, -1.515679, 3.542521, 0.199480, -1.208238, 1.801976, , , 
1647835704.142652, 16.732626, -1.690606, 3.291429, -0.299369, -1.177770, 2.679723, , , 
1647835704.162719, 14.285453, -1.948282, 2.415151, -0.813418, -0.945866, 3.407236, , , 
1647835704.182654, 12.003629, -2.223166, 0.768090, -1.161782, -0.652208, 4.040329, , , 
1647835704.202712, 9.546131, -2.211045, -1.022923, -1.258497, -0.165945, 4.581384, , , 
1647835704.222657, 7.205500, -2.051980, -2.221819, -1.343621, 0.489675, 5.019992, , , 
1647835704.242656, 4.667197, -1.561169, -2.473210, -1.604600, 1.044205, 5.289288, , , 
1647835704.262667, 1.122282, -1.745822, -3.737798, -1.842047, 0.936065, 5.609311, , , 
1647835704.282661, -3.189974, -2.097321, -5.746982, -1.812299, 0.144534, 6.080045, , , 
1647835704.302693, -11.258284, -3.030760, -8.188918, -1.137649, -0.457266, 5.770459, , , 
1647835704.322641, -17.431584, -5.453842, -9.278130, -0.166746, -0.433879, 4.233880, , , 
1647835704.342660, -18.038663, -8.429086, -7.208043, 0.355892, 0.278596, 3.018369, , , 
1647835704.362676, -18.290952, -10.788123, -5.973832, 0.346941, 0.917064, 2.442500, , , 
1647835704.382660, -21.549760, -11.314398, -6.319795, 0.373880, 0.600736, 1.301328, , , 
1647835704.402676, -20.814291, -12.442067, -6.108057, 0.575499, -0.187633, -0.029092, , , 
1647835704.422672, -18.662802, -12.057798, -4.708946, 0.526895, -0.368314, -0.994632, , , 
1647835704.442665, -16.642395, -11.133786, -4.431667, 0.487054, -0.278098, -1.811623, , , 
1647835704.462680, -14.184298, -10.008661, -4.193893, 0.377847, -0.317255, -2.471799, , , 
1647835704.482664, -12.326547, -8.855254, -5.077952, 0.308394, -0.626831, -3.009019, , , 
1647835704.502683, -10.697293, -7.754819, -6.261286, 0.537213, -1.058381, -3.547885, , , 
1647835704.522671, -8.411728, -6.815245, -6.048202, 0.820104, -1.214457, -4.029383, , , 
1647835704.542662, -5.806089, -5.741595, -5.073912, 0.942252, -0.975730, -4.389064, , , 
1647835704.562676, -3.387197, -4.674679, -4.435857, 0.953773, -0.816308, -4.825608, , , 
1647835704.581682, 0.056713, -3.534440, -3.353828, 0.801361, -0.761135, -5.215206, , , 
1647835704.602704, 3.409642, -2.062904, -2.388366, 0.476776, -0.340202, -5.418347, , , 
1647835704.622669, 6.994211, -1.137695, -2.028936, 0.257330, 0.376472, -5.319528, , , 
1647835704.642660, 10.893318, -0.742203, -1.364545, 0.066108, 1.061241, -4.740024, , , 
1647835704.662675, 13.945925, -1.166724, -1.426346, -0.010176, 1.179145, -3.680352, , , 
1647835704.681736, 15.151855, -1.591845, -1.355268, 0.133933, 0.925051, -2.622316, , , 
1647835704.702681, 16.535554, -2.262820, -1.038485, 0.265146, 0.296950, -1.475287, , , 
1647835704.722672, 17.197102, -3.229329, -0.768539, 0.399897, -0.282792, -0.233789, , , 
1647835704.742660, 15.732748, -3.512743, -0.163704, 0.447986, -0.431497, 0.852685, , , 
1647835704.762675, 13.898790, -3.988441, 0.439186, 0.374122, -0.163951, 1.662729, , , 
1647835704.781794, 12.284798, -4.530129, 0.977582, 0.154231, 0.206723, 2.325711, , , 
1647835704.802707, 10.864139, -4.901380, 1.157597, -0.189556, 0.411910, 2.934234, , , 
1647835704.822672, 9.162759, -5.265598, 0.920571, -0.659698, 0.381032, 3.535629, , , 
1647835704.842666, 6.191405, -5.395034, -0.187346, -1.179907, 0.162736, 4.031260, , , 
1647835704.862674, 2.451064, -6.077980, -2.204760, -1.400354, -0.173020, 4.181346, , , 
1647835704.881939, -1.265934, -7.019799, -3.859752, -1.319045, -0.476327, 3.946607, , , 
1647835704.902671, -4.269610, -7.833977, -4.763563, -1.019331, -0.302103, 3.476616, , , 
1647835704.922665, -6.715885, -8.499715, -5.113715, -0.657491, 0.213905, 2.829008, , , 
1647835704.942654, -7.847445, -9.670929, -5.139154, -0.208587, 0.525156, 1.651462, , , 
1647835704.962678, -7.549367, -10.581025, -4.390367, -0.124521, 0.454737, 1.065198, , , 
1647835704.981911, -6.360496, -10.884490, -3.679738, -0.116931, 0.431148, 0.874788, , , 
1647835705.002684, -5.143643, -10.887033, -3.201796, -0.233542, 0.356926, 0.596384, , , 
1647835705.022670, -5.898415, -10.812664, -3.051709, -0.292171, 0.676029, 0.334250, , , 
1647835705.042675, -6.071396, -11.109994, -4.551826, -0.016637, 0.299019, -0.009576, , , 
1647835705.062275, -4.400243, -10.631004, -3.997569, 0.170930, -0.230696, -0.178254, , , 
1647835705.081940, -2.905064, -10.061333, -3.101539, 0.170831, -0.264579, -0.254814, , , 
1647835705.102682, -1.826926, -9.621698, -2.247557, 0.035014, -0.231307, -0.306929, , , 
1647835705.122671, -1.073500, -9.306860, -2.196381, -0.089073, -0.118413, -0.310825, , , 
1647835705.142660, -0.517297, -8.999505, -2.299631, -0.205358, 0.156586, -0.276177, , , 
1647835705.162675, -0.051026, -8.772056, -2.699163, -0.233844, 0.346231, -0.204477, , , 
1647835705.181993, 0.250344, -8.701576, -3.306093, -0.156100, 0.186010, -0.119961, , , 
1647835705.202709, 0.354491, -8.762030, -3.486706, -0.052469, -0.063082, -0.027764, , , 
1647835705.222671, 0.097713, -9.063101, -3.106327, -0.050664, -0.168467, 0.010006, , , 
1647835705.242665, -0.295684, -9.166351, -2.799869, -0.125756, -0.104688, 0.036422, , , 
1647835705.262674, -0.475099, -9.310003, -2.935291, -0.175580, -0.061724, 0.037871, , , 
1647835705.282063, -0.721702, -9.342624, -3.245191, -0.184603, 0.020319, 0.015299, , , 
1647835705.302669, -0.936133, -9.405621, -3.518579, -0.156214, 0.129235, -0.025353, , , 
1647835705.322667, -1.023222, -9.458144, -3.790021, -0.104154, 0.133021, -0.070727, , , 
1647835705.342660, -0.921319, -9.491214, -3.862296, -0.048671, 0.033572, -0.097492, , , 
1647835705.362674, -0.774674, -9.373449, -3.541772, -0.066001, 0.010483, -0.081841, , , 
1647835705.382107, -0.576703, -9.315539, -3.516484, -0.080535, 0.026546, -0.060485, , , 
1647835705.402675, -0.606631, -9.257480, -3.507805, -0.092682, 0.056811, -0.056265, , , 
1647835705.422666, -0.521188, -9.254338, -3.593996, -0.085815, 0.039321, -0.048736, , , 
1647835705.442660, -0.552761, -9.205855, -3.635146, -0.061220, 0.012506, -0.038426, , , 
1647835705.462177, -0.433949, -9.220669, -3.906589, 0.088318, -0.191081, -0.028369, , , 
1647835705.482179, -0.380977, -9.171139, -3.445406, 0.035628, -0.080656, 0.014864, , , 
1647835705.502714, -0.619649, -9.233388, -3.282600, -0.053841, 0.225114, 0.023336, , , 
1647835705.521869, -0.696264, -9.315988, -3.774609, -0.002384, 0.277317, 0.000482, , , 